PE UV       SUBTECH     SPECTRUM    ASCII       PEDS        4.00        
   -1
KTF-9_1_A.asc
19/06/25
11:03:40.00
19/06/25
11:03:40.00
Analyst

190.000000
1
Lambda 1050
1050L1611222
PerkinElmer UV WinLab 6.3.2.0749 / 2.02.06 Lambda 900 UV/VIS/NIR, Jan 28 2016 16:58:34

0
0
3350/servo 1800.8/servo 820.8/2
0
0
UV/VIS
1
1
1
DoubleDePol,CommonBeamDepol,RBeamAtt,SBeamAtt,uv/vis/nir detector, TDS WB InGaAs Detector
0
0
0
0
Program
Program
3350/servo 1800.8/servo 820.8/2
3350/0.24 1800.8/0.24 820.8/0.2
3350/0.24 1800.8/0.24 820.8/0.2
0
3350/1.00 1800.8/10.00
 
 
 
0
 
820.8
319.2
1800.8 820.8
Front
50
on
S:100 R:100
0
0
0
0
 
0
 
 
 
0
 
 
0
0
0
0
0
 
 
 
 
0
0


0
0
#HDR
-1
-1
#GR
nm
%T
1.0
0.0
2500.000000
-2.000000
1156
8
92.078671
-0.008244
#DATA
2500.000000	74.863648
2498.000000	74.658237
2496.000000	74.402297
2494.000000	74.203167
2492.000000	73.881150
2490.000000	73.666877
2488.000000	73.319701
2486.000000	73.080843
2484.000000	72.767686
2482.000000	72.375564
2480.000000	72.080013
2478.000000	71.669611
2476.000000	71.280915
2474.000000	70.881643
2472.000000	70.351207
2470.000000	69.848119
2468.000000	69.316116
2466.000000	68.643687
2464.000000	68.082179
2462.000000	67.324741
2460.000000	66.508750
2458.000000	65.627924
2456.000000	64.629086
2454.000000	63.542725
2452.000000	62.390578
2450.000000	61.075912
2448.000000	59.727576
2446.000000	58.308755
2444.000000	56.856579
2442.000000	55.405250
2440.000000	53.896440
2438.000000	52.480537
2436.000000	50.939079
2434.000000	49.468254
2432.000000	48.030576
2430.000000	46.465809
2428.000000	44.944864
2426.000000	43.461348
2424.000000	42.077784
2422.000000	40.780081
2420.000000	39.585193
2418.000000	38.575385
2416.000000	37.739388
2414.000000	37.070946
2412.000000	36.531815
2410.000000	36.129265
2408.000000	35.791485
2406.000000	35.551061
2404.000000	35.297428
2402.000000	35.003943
2400.000000	34.738664
2398.000000	34.374894
2396.000000	33.889918
2394.000000	33.287343
2392.000000	32.633989
2390.000000	31.842126
2388.000000	30.991077
2386.000000	30.016454
2384.000000	29.007797
2382.000000	27.966332
2380.000000	26.978288
2378.000000	26.057119
2376.000000	25.331467
2374.000000	24.768547
2372.000000	24.476954
2370.000000	24.458480
2368.000000	24.737416
2366.000000	25.251000
2364.000000	25.969280
2362.000000	26.789824
2360.000000	27.628201
2358.000000	28.400497
2356.000000	29.076047
2354.000000	29.609923
2352.000000	30.022709
2350.000000	30.372194
2348.000000	30.709433
2346.000000	31.018598
2344.000000	31.402180
2342.000000	31.842736
2340.000000	32.323004
2338.000000	32.773855
2336.000000	33.200935
2334.000000	33.501049
2332.000000	33.636538
2330.000000	33.576091
2328.000000	33.265849
2326.000000	32.727128
2324.000000	31.951663
2322.000000	31.001129
2320.000000	29.916905
2318.000000	28.758702
2316.000000	27.579974
2314.000000	26.417428
2312.000000	25.312406
2310.000000	24.285613
2308.000000	23.292739
2306.000000	22.311518
2304.000000	21.336882
2302.000000	20.380987
2300.000000	19.403052
2298.000000	18.401577
2296.000000	17.468710
2294.000000	16.595289
2292.000000	15.840906
2290.000000	15.313869
2288.000000	14.998599
2286.000000	14.943559
2284.000000	15.143400
2282.000000	15.557346
2280.000000	16.140065
2278.000000	16.831054
2276.000000	17.549858
2274.000000	18.267002
2272.000000	18.938423
2270.000000	19.545983
2268.000000	20.161651
2266.000000	20.767210
2264.000000	21.427710
2262.000000	22.209876
2260.000000	23.093519
2258.000000	24.099535
2256.000000	25.185012
2254.000000	26.296387
2252.000000	27.361263
2250.000000	28.333674
2248.000000	29.160433
2246.000000	29.750244
2244.000000	30.048873
2242.000000	30.091992
2240.000000	29.883440
2238.000000	29.499217
2236.000000	29.004144
2234.000000	28.495210
2232.000000	28.023268
2230.000000	27.620032
2228.000000	27.344420
2226.000000	27.178994
2224.000000	27.056240
2222.000000	26.905419
2220.000000	26.695397
2218.000000	26.480770
2216.000000	26.354223
2214.000000	26.362600
2212.000000	26.621392
2210.000000	27.185984
2208.000000	28.098244
2206.000000	29.383503
2204.000000	30.947840
2202.000000	32.721428
2200.000000	34.614627
2198.000000	36.551462
2196.000000	38.474828
2194.000000	40.360488
2192.000000	42.159392
2190.000000	43.855830
2188.000000	45.461787
2186.000000	46.961066
2184.000000	48.382421
2182.000000	49.679413
2180.000000	50.858636
2178.000000	51.964818
2176.000000	52.951533
2174.000000	53.807803
2172.000000	54.554243
2170.000000	55.217779
2168.000000	55.799457
2166.000000	56.306421
2164.000000	56.745475
2162.000000	57.101425
2160.000000	57.380457
2158.000000	57.582975
2156.000000	57.711417
2154.000000	57.784918
2152.000000	57.805571
2150.000000	57.810549
2148.000000	57.819212
2146.000000	57.734973
2144.000000	57.521965
2142.000000	57.421685
2140.000000	57.575508
2138.000000	57.931139
2136.000000	58.427037
2134.000000	58.881149
2132.000000	59.166860
2130.000000	59.377403
2128.000000	59.801433
2126.000000	60.423127
2124.000000	60.823950
2122.000000	61.030796
2120.000000	61.448445
2118.000000	62.010073
2116.000000	62.290822
2114.000000	62.453245
2112.000000	62.705342
2110.000000	62.938627
2108.000000	63.101065
2106.000000	63.203463
2104.000000	63.315345
2102.000000	63.549407
2100.000000	63.514673
2098.000000	63.355821
2096.000000	63.308469
2094.000000	63.144368
2092.000000	62.904003
2090.000000	62.600981
2088.000000	62.241774
2086.000000	61.845432
2084.000000	61.535983
2082.000000	60.951650
2080.000000	60.085639
2078.000000	59.434477
2076.000000	58.914945
2074.000000	58.061122
2072.000000	56.964211
2070.000000	56.106715
2068.000000	55.342050
2066.000000	54.230656
2064.000000	53.009063
2062.000000	51.795251
2060.000000	50.529326
2058.000000	49.247715
2056.000000	47.993665
2054.000000	46.907669
2052.000000	45.714407
2050.000000	44.574980
2048.000000	43.589982
2046.000000	42.680158
2044.000000	41.826070
2042.000000	41.027420
2040.000000	40.240413
2038.000000	39.412601
2036.000000	38.545272
2034.000000	37.734714
2032.000000	36.720630
2030.000000	35.523211
2028.000000	34.484568
2026.000000	33.551158
2024.000000	32.390400
2022.000000	31.190928
2020.000000	30.044061
2018.000000	28.840319
2016.000000	27.667274
2014.000000	26.302924
2012.000000	24.762333
2010.000000	23.258829
2008.000000	21.637612
2006.000000	19.956898
2004.000000	18.150943
2002.000000	16.340345
2000.000000	14.642372
1998.000000	13.115583
1996.000000	11.766677
1994.000000	10.586894
1992.000000	9.612538
1990.000000	8.817771
1988.000000	8.137488
1986.000000	7.582261
1984.000000	7.051786
1982.000000	6.542574
1980.000000	6.048931
1978.000000	5.566788
1976.000000	5.096475
1974.000000	4.700945
1972.000000	4.396250
1970.000000	4.172356
1968.000000	4.044268
1966.000000	4.000636
1964.000000	4.028578
1962.000000	4.106080
1960.000000	4.221734
1958.000000	4.382632
1956.000000	4.589314
1954.000000	4.848219
1952.000000	5.190850
1950.000000	5.611685
1948.000000	6.142211
1946.000000	6.833940
1944.000000	7.666695
1942.000000	8.609407
1940.000000	9.643733
1938.000000	10.738053
1936.000000	11.832108
1934.000000	12.816489
1932.000000	13.672387
1930.000000	14.352348
1928.000000	14.841407
1926.000000	15.144428
1924.000000	15.366015
1922.000000	15.508327
1920.000000	15.632927
1918.000000	15.672925
1916.000000	15.644272
1914.000000	15.631192
1912.000000	15.572307
1910.000000	15.493622
1908.000000	15.364258
1906.000000	15.140028
1904.000000	14.832952
1902.000000	14.554566
1900.000000	14.150417
1898.000000	13.664205
1896.000000	13.083213
1894.000000	12.508340
1892.000000	11.939540
1890.000000	11.365206
1888.000000	10.820026
1886.000000	10.292323
1884.000000	9.823880
1882.000000	9.412214
1880.000000	9.116004
1878.000000	8.823358
1876.000000	8.616788
1874.000000	8.490996
1872.000000	8.516011
1870.000000	8.689500
1868.000000	9.009392
1866.000000	9.433424
1864.000000	9.989137
1862.000000	10.582194
1860.000000	11.280683
1858.000000	12.059203
1856.000000	12.816700
1854.000000	13.564107
1852.000000	14.230789
1850.000000	14.827526
1848.000000	15.333167
1846.000000	15.928210
1844.000000	16.634958
1842.000000	17.487176
1840.000000	18.425899
1838.000000	19.510984
1836.000000	20.706455
1834.000000	21.920095
1832.000000	23.045327
1830.000000	24.140822
1828.000000	24.957613
1826.000000	25.647973
1824.000000	26.032838
1822.000000	26.106316
1820.000000	25.945443
1818.000000	25.403246
1816.000000	24.788029
1814.000000	24.137900
1812.000000	23.591895
1810.000000	23.244053
1808.000000	23.209532
1806.000000	23.678183
1804.000000	24.611292
1802.000000	25.930852
1800.000000	24.949820
1798.000000	27.160100
1796.000000	29.391376
1794.000000	31.388005
1792.000000	33.129463
1790.000000	34.680341
1788.000000	36.040823
1786.000000	37.257560
1784.000000	38.342793
1782.000000	39.110580
1780.000000	39.382894
1778.000000	39.179371
1776.000000	38.782269
1774.000000	38.794391
1772.000000	39.800510
1770.000000	41.863485
1768.000000	44.557257
1766.000000	47.377736
1764.000000	50.148121
1762.000000	52.708788
1760.000000	54.995482
1758.000000	57.002586
1756.000000	58.711106
1754.000000	60.107860
1752.000000	61.169968
1750.000000	61.982138
1748.000000	62.563069
1746.000000	63.038469
1744.000000	63.636288
1742.000000	64.474880
1740.000000	65.588928
1738.000000	66.910239
1736.000000	68.226667
1734.000000	69.507336
1732.000000	70.699726
1730.000000	71.805508
1728.000000	72.811749
1726.000000	73.746501
1724.000000	74.626482
1722.000000	75.485024
1720.000000	76.336510
1718.000000	77.145624
1716.000000	77.906574
1714.000000	78.601831
1712.000000	79.217631
1710.000000	79.758178
1708.000000	80.201599
1706.000000	80.585349
1704.000000	80.899882
1702.000000	81.140923
1700.000000	81.334722
1698.000000	81.468011
1696.000000	81.491759
1694.000000	81.426250
1692.000000	81.217300
1690.000000	80.812683
1688.000000	80.125479
1686.000000	79.181024
1684.000000	78.049574
1682.000000	76.990084
1680.000000	76.454797
1678.000000	76.862848
1676.000000	78.118217
1674.000000	79.657563
1672.000000	81.080257
1670.000000	82.238424
1668.000000	83.111779
1666.000000	83.833536
1664.000000	84.434388
1662.000000	84.969715
1660.000000	85.430519
1658.000000	85.842847
1656.000000	86.206711
1654.000000	86.517729
1652.000000	86.787089
1650.000000	87.011760
1648.000000	87.230854
1646.000000	87.448560
1644.000000	87.669181
1642.000000	87.885083
1640.000000	88.097762
1638.000000	88.293691
1636.000000	88.515029
1634.000000	88.728490
1632.000000	88.917991
1630.000000	89.094164
1628.000000	89.268004
1626.000000	89.449298
1624.000000	89.616124
1622.000000	89.777273
1620.000000	89.933977
1618.000000	90.065431
1616.000000	90.181803
1614.000000	90.288552
1612.000000	90.395770
1610.000000	90.487963
1608.000000	90.562252
1606.000000	90.641570
1604.000000	90.705075
1602.000000	90.804126
1600.000000	90.889981
1598.000000	90.937341
1596.000000	91.039707
1594.000000	91.116516
1592.000000	91.182907
1590.000000	91.248474
1588.000000	91.261500
1586.000000	91.325217
1584.000000	91.374652
1582.000000	91.406601
1580.000000	91.442053
1578.000000	91.460426
1576.000000	91.526673
1574.000000	91.556322
1572.000000	91.606901
1570.000000	91.639879
1568.000000	91.678765
1566.000000	91.707655
1564.000000	91.708026
1562.000000	91.725779
1560.000000	91.746295
1558.000000	91.763077
1556.000000	91.787166
1554.000000	91.794259
1552.000000	91.809391
1550.000000	91.828130
1548.000000	91.850932
1546.000000	91.863824
1544.000000	91.875223
1542.000000	91.896739
1540.000000	91.910414
1538.000000	91.919840
1536.000000	91.936649
1534.000000	91.946070
1532.000000	91.951590
1530.000000	91.963477
1528.000000	91.992062
1526.000000	92.011179
1524.000000	92.002402
1522.000000	92.000709
1520.000000	91.996918
1518.000000	92.004927
1516.000000	92.007739
1514.000000	92.014053
1512.000000	92.014758
1510.000000	92.012813
1508.000000	92.023913
1506.000000	92.037497
1504.000000	92.036269
1502.000000	92.034641
1500.000000	92.040971
1498.000000	92.043998
1496.000000	92.034909
1494.000000	92.036709
1492.000000	92.048545
1490.000000	92.050711
1488.000000	92.055646
1486.000000	92.043178
1484.000000	92.036701
1482.000000	92.037600
1480.000000	92.042174
1478.000000	92.051587
1476.000000	92.053689
1474.000000	92.069541
1472.000000	92.071374
1470.000000	92.060272
1468.000000	92.052918
1466.000000	92.045498
1464.000000	92.046899
1462.000000	92.043965
1460.000000	92.042240
1458.000000	92.033160
1456.000000	92.031440
1454.000000	92.039017
1452.000000	92.038686
1450.000000	92.049328
1448.000000	92.057714
1446.000000	92.057780
1444.000000	92.066357
1442.000000	92.069218
1440.000000	92.073509
1438.000000	92.069357
1436.000000	92.067314
1434.000000	92.078671
1432.000000	92.075022
1430.000000	92.067316
1428.000000	92.073544
1426.000000	92.077455
1424.000000	92.073082
1422.000000	92.065324
1420.000000	92.048115
1418.000000	92.036421
1416.000000	92.034899
1414.000000	92.040547
1412.000000	92.046743
1410.000000	92.051835
1408.000000	92.056966
1406.000000	92.060801
1404.000000	92.069607
1402.000000	92.052521
1400.000000	92.042058
1398.000000	92.045440
1396.000000	92.029385
1394.000000	92.026555
1392.000000	92.068091
1390.000000	92.058319
1388.000000	92.042527
1386.000000	92.045848
1384.000000	92.018200
1382.000000	92.029689
1380.000000	92.055738
1378.000000	92.054950
1376.000000	92.057445
1374.000000	92.054825
1372.000000	92.041826
1370.000000	92.051784
1368.000000	92.045502
1366.000000	92.026919
1364.000000	92.042820
1362.000000	92.037505
1360.000000	92.034754
1358.000000	92.043768
1356.000000	92.031356
1354.000000	92.037141
1352.000000	92.061203
1350.000000	92.068997
1348.000000	92.056755
1346.000000	92.064674
1344.000000	92.062634
1342.000000	92.031625
1340.000000	92.021262
1338.000000	92.038756
1336.000000	92.038545
1334.000000	92.024359
1332.000000	92.028889
1330.000000	92.042991
1328.000000	92.045060
1326.000000	92.052271
1324.000000	92.052480
1322.000000	92.060624
1320.000000	92.050926
1318.000000	92.038803
1316.000000	92.027977
1314.000000	92.024301
1312.000000	92.026758
1310.000000	92.028179
1308.000000	92.018512
1306.000000	92.016290
1304.000000	92.023200
1302.000000	92.016934
1300.000000	92.015160
1298.000000	92.015157
1296.000000	92.008931
1294.000000	92.001855
1292.000000	92.013039
1290.000000	92.019050
1288.000000	92.022693
1286.000000	92.023029
1284.000000	92.014836
1282.000000	92.017811
1280.000000	92.019893
1278.000000	91.991428
1276.000000	91.997167
1274.000000	92.025651
1272.000000	92.015570
1270.000000	91.979597
1268.000000	91.969693
1266.000000	91.999730
1264.000000	91.972358
1262.000000	91.982469
1260.000000	91.988343
1258.000000	91.976309
1256.000000	91.990829
1254.000000	91.979886
1252.000000	91.988192
1250.000000	91.985759
1248.000000	91.998933
1246.000000	92.004040
1244.000000	92.007013
1242.000000	92.016313
1240.000000	91.999751
1238.000000	92.004757
1236.000000	92.006662
1234.000000	92.004491
1232.000000	91.987848
1230.000000	91.996875
1228.000000	92.007019
1226.000000	91.987013
1224.000000	91.957820
1222.000000	91.954742
1220.000000	91.983416
1218.000000	91.966459
1216.000000	91.964234
1214.000000	91.976013
1212.000000	91.971235
1210.000000	91.989097
1208.000000	91.979513
1206.000000	91.976309
1204.000000	91.995183
1202.000000	91.975353
1200.000000	91.950225
1198.000000	91.940497
1196.000000	91.946647
1194.000000	91.936234
1192.000000	91.949159
1190.000000	91.953670
1188.000000	91.930688
1186.000000	91.939473
1184.000000	91.940054
1182.000000	91.935707
1180.000000	91.935283
1178.000000	91.927097
1176.000000	91.912055
1174.000000	91.914134
1172.000000	91.941905
1170.000000	91.934209
1168.000000	91.951481
1166.000000	91.965559
1164.000000	91.947712
1162.000000	91.935692
1160.000000	91.928106
1158.000000	91.921931
1156.000000	91.920819
1154.000000	91.927532
1152.000000	91.924795
1150.000000	91.937376
1148.000000	91.937051
1146.000000	91.948290
1144.000000	91.935504
1142.000000	91.926658
1140.000000	91.923595
1138.000000	91.919325
1136.000000	91.920947
1134.000000	91.927429
1132.000000	91.926472
1130.000000	91.925428
1128.000000	91.918728
1126.000000	91.910272
1124.000000	91.900098
1122.000000	91.901634
1120.000000	91.913626
1118.000000	91.913595
1116.000000	91.912743
1114.000000	91.908380
1112.000000	91.906120
1110.000000	91.906484
1108.000000	91.919884
1106.000000	91.914462
1104.000000	91.901240
1102.000000	91.882911
1100.000000	91.877489
1098.000000	91.889970
1096.000000	91.892516
1094.000000	91.885669
1092.000000	91.900377
1090.000000	91.882732
1088.000000	91.871449
1086.000000	91.882094
1084.000000	91.877888
1082.000000	91.883818
1080.000000	91.887893
1078.000000	91.869646
1076.000000	91.883628
1074.000000	91.883017
1072.000000	91.880934
1070.000000	91.885636
1068.000000	91.876770
1066.000000	91.881262
1064.000000	91.871174
1062.000000	91.858427
1060.000000	91.865868
1058.000000	91.854970
1056.000000	91.863821
1054.000000	91.850622
1052.000000	91.844176
1050.000000	91.853819
1048.000000	91.846915
1046.000000	91.849951
1044.000000	91.849723
1042.000000	91.844172
1040.000000	91.847202
1038.000000	91.848615
1036.000000	91.845881
1034.000000	91.822959
1032.000000	91.843936
1030.000000	91.823649
1028.000000	91.831326
1026.000000	91.820522
1024.000000	91.815091
1022.000000	91.817086
1020.000000	91.813849
1018.000000	91.791017
1016.000000	91.803350
1014.000000	91.783639
1012.000000	91.778253
1010.000000	91.792108
1008.000000	91.789804
1006.000000	91.781256
1004.000000	91.780579
1002.000000	91.785865
1000.000000	91.797895
998.000000	91.783903
996.000000	91.773315
994.000000	91.768539
992.000000	91.776111
990.000000	91.775121
988.000000	91.767452
986.000000	91.775132
984.000000	91.747610
982.000000	91.762608
980.000000	91.745755
978.000000	91.738884
976.000000	91.744910
974.000000	91.753476
972.000000	91.735822
970.000000	91.725168
968.000000	91.718376
966.000000	91.731402
964.000000	91.730061
962.000000	91.725328
960.000000	91.711605
958.000000	91.698678
956.000000	91.690006
954.000000	91.698652
952.000000	91.666380
950.000000	91.675458
948.000000	91.668719
946.000000	91.664240
944.000000	91.663457
942.000000	91.655750
940.000000	91.651276
938.000000	91.649055
936.000000	91.653517
934.000000	91.648164
932.000000	91.652627
930.000000	91.632804
928.000000	91.629140
926.000000	91.629304
924.000000	91.635980
922.000000	91.627688
920.000000	91.612658
918.000000	91.612620
916.000000	91.595422
914.000000	91.574276
912.000000	91.557158
910.000000	91.532114
908.000000	91.544674
906.000000	91.561714
904.000000	91.537235
902.000000	91.519401
900.000000	91.500346
898.000000	91.489043
896.000000	91.470318
894.000000	91.477105
892.000000	91.442442
890.000000	91.441872
888.000000	91.408265
886.000000	91.391231
884.000000	91.396565
882.000000	91.400573
880.000000	91.369783
878.000000	91.333673
876.000000	91.303614
874.000000	91.289753
872.000000	91.274778
870.000000	91.237990
868.000000	91.202873
866.000000	91.175748
864.000000	91.146324
862.000000	91.139908
860.000000	91.152937
858.000000	91.141957
856.000000	91.098933
854.000000	91.055872
852.000000	91.031303
850.000000	90.977881
848.000000	90.932792
846.000000	90.948322
844.000000	90.951503
842.000000	90.935683
840.000000	90.830771
838.000000	90.815908
836.000000	90.797139
834.000000	90.768150
832.000000	90.727309
830.000000	90.691768
828.000000	90.658734
826.000000	90.618706
824.000000	90.581712
822.000000	90.502790
820.000000	91.316453
818.000000	91.329410
816.000000	91.321194
814.000000	91.365839
812.000000	91.427819
810.000000	91.325935
808.000000	91.301831
806.000000	91.365355
804.000000	91.279774
802.000000	91.344189
800.000000	91.370748
798.000000	91.329451
796.000000	91.342170
794.000000	91.312419
792.000000	91.350160
790.000000	91.227277
788.000000	91.319654
786.000000	91.264607
784.000000	91.297229
782.000000	91.294102
780.000000	91.289278
778.000000	91.301793
776.000000	91.358457
774.000000	91.286447
772.000000	91.261518
770.000000	91.324348
768.000000	91.305936
766.000000	91.281845
764.000000	91.278591
762.000000	91.218213
760.000000	91.225330
758.000000	91.239289
756.000000	91.260692
754.000000	91.277607
752.000000	91.246988
750.000000	91.227873
748.000000	91.259836
746.000000	91.193928
744.000000	91.187898
742.000000	91.236240
740.000000	91.199337
738.000000	91.226044
736.000000	91.217471
734.000000	91.215264
732.000000	91.156840
730.000000	91.165073
728.000000	91.193869
726.000000	91.151387
724.000000	91.191968
722.000000	91.171096
720.000000	91.182127
718.000000	91.180646
716.000000	91.152500
714.000000	91.152940
712.000000	91.173933
710.000000	91.158906
708.000000	91.133045
706.000000	91.136167
704.000000	91.131059
702.000000	91.125054
700.000000	91.103857
698.000000	91.098630
696.000000	91.099648
694.000000	91.113164
692.000000	91.118686
690.000000	91.133204
688.000000	91.156793
686.000000	91.124278
684.000000	91.141104
682.000000	91.118508
680.000000	91.094163
678.000000	91.080638
676.000000	91.102369
674.000000	91.109519
672.000000	91.115526
670.000000	91.080720
668.000000	91.083000
666.000000	91.087711
664.000000	91.084628
662.000000	91.032295
660.000000	91.061429
658.000000	91.050019
656.000000	91.092396
654.000000	91.077661
652.000000	91.065630
650.000000	91.030343
648.000000	91.057938
646.000000	91.050298
644.000000	91.043723
642.000000	91.002086
640.000000	90.996091
638.000000	91.014418
636.000000	91.018315
634.000000	90.973950
632.000000	91.016312
630.000000	91.052357
628.000000	91.029324
626.000000	90.966375
624.000000	90.962056
622.000000	90.979057
620.000000	90.968384
618.000000	91.003743
616.000000	90.993016
614.000000	90.965293
612.000000	90.972013
610.000000	90.988474
608.000000	90.987300
606.000000	90.966179
604.000000	90.947808
602.000000	90.960618
600.000000	90.958458
598.000000	90.932309
596.000000	90.943685
594.000000	90.948386
592.000000	90.908479
590.000000	90.879226
588.000000	90.864546
586.000000	90.877561
584.000000	90.896154
582.000000	90.910393
580.000000	90.880617
578.000000	90.860164
576.000000	90.884674
574.000000	90.880966
572.000000	90.850495
570.000000	90.840499
568.000000	90.802274
566.000000	90.816064
564.000000	90.843236
562.000000	90.800128
560.000000	90.796161
558.000000	90.801154
556.000000	90.807539
554.000000	90.821183
552.000000	90.804553
550.000000	90.788227
548.000000	90.773685
546.000000	90.782192
544.000000	90.772840
542.000000	90.779318
540.000000	90.784314
538.000000	90.797347
536.000000	90.763645
534.000000	90.739112
532.000000	90.733876
530.000000	90.706261
528.000000	90.700068
526.000000	90.680863
524.000000	90.689515
522.000000	90.720160
520.000000	90.707174
518.000000	90.696913
516.000000	90.688538
514.000000	90.662777
512.000000	90.635940
510.000000	90.629230
508.000000	90.616770
506.000000	90.578434
504.000000	90.560149
502.000000	90.549961
500.000000	90.484417
498.000000	90.318690
496.000000	89.925531
494.000000	89.026416
492.000000	87.695256
490.000000	86.739318
488.000000	84.448099
486.000000	81.625737
484.000000	83.669844
482.000000	87.251303
480.000000	89.043737
478.000000	89.673213
476.000000	90.071099
474.000000	90.333405
472.000000	90.433141
470.000000	90.474019
468.000000	90.473060
466.000000	90.447615
464.000000	90.408905
462.000000	90.413050
460.000000	90.400197
458.000000	90.388508
456.000000	90.363173
454.000000	90.350033
452.000000	90.343028
450.000000	90.341187
448.000000	90.346913
446.000000	90.348133
444.000000	90.341884
442.000000	90.312957
440.000000	90.303023
438.000000	90.324768
436.000000	90.296112
434.000000	90.265035
432.000000	90.263551
430.000000	90.247616
428.000000	90.256078
426.000000	90.241768
424.000000	90.218556
422.000000	90.199873
420.000000	90.161913
418.000000	90.125065
416.000000	90.151366
414.000000	90.191286
412.000000	90.178769
410.000000	90.158953
408.000000	90.135567
406.000000	90.111766
404.000000	90.108470
402.000000	90.108010
400.000000	90.090818
398.000000	90.041469
396.000000	89.997689
394.000000	90.007026
392.000000	90.007369
390.000000	89.918559
388.000000	89.684728
386.000000	88.528176
384.000000	84.209019
382.000000	77.649385
380.000000	69.560497
378.000000	59.976953
376.000000	51.712116
374.000000	55.647308
372.000000	59.114913
370.000000	50.787641
368.000000	53.439836
366.000000	63.347578
364.000000	72.047255
362.000000	78.163423
360.000000	73.523022
358.000000	64.633149
356.000000	61.971306
354.000000	59.259028
352.000000	51.651797
350.000000	54.866199
348.000000	68.996066
346.000000	77.165541
344.000000	75.087442
342.000000	70.956499
340.000000	70.166289
338.000000	74.325437
336.000000	79.332176
334.000000	84.042273
332.000000	86.996653
330.000000	86.641380
328.000000	85.573290
326.000000	86.590179
324.000000	87.109818
322.000000	83.895342
320.000000	77.349718
318.000000	73.151325
316.000000	75.795307
314.000000	83.456040
312.000000	88.012804
310.000000	88.812242
308.000000	87.897366
306.000000	84.759601
304.000000	79.345263
302.000000	77.721730
300.000000	83.476354
298.000000	87.015720
296.000000	86.195701
294.000000	86.411503
292.000000	87.383415
290.000000	86.455921
288.000000	78.816631
286.000000	62.279651
284.000000	49.670257
282.000000	61.871863
280.000000	79.155522
278.000000	85.826375
276.000000	83.800755
274.000000	71.419539
272.000000	69.306598
270.000000	78.152944
268.000000	78.295079
266.000000	65.832389
264.000000	47.667707
262.000000	25.999143
260.000000	9.613292
258.000000	2.645709
256.000000	0.973192
254.000000	1.871102
252.000000	7.561055
250.000000	21.576837
248.000000	39.756953
246.000000	54.815671
244.000000	59.814225
242.000000	53.654110
240.000000	60.475406
238.000000	66.864858
236.000000	65.021649
234.000000	60.591106
232.000000	42.159120
230.000000	16.104479
228.000000	2.626034
226.000000	0.085945
224.000000	-0.006251
222.000000	-0.005577
220.000000	-0.005358
218.000000	-0.004567
216.000000	-0.006287
214.000000	-0.008244
212.000000	-0.007339
210.000000	-0.005398
208.000000	-0.004255
206.000000	-0.001382
204.000000	0.004492
202.000000	0.006566
200.000000	0.007943
198.000000	0.014384
196.000000	0.029972
194.000000	0.059122
192.000000	0.103002
190.000000	0.206075
